[
    {
        "success": true,
        "trial_type": "fullscreen",
        "trial_index": 0,
        "time_elapsed": 2223,
        "internal_node_id": "0.0-0.0"
    },
    {
        "view_history": "[{\"page_index\":0,\"viewing_time\":1214},{\"page_index\":1,\"viewing_time\":1080},{\"page_index\":2,\"viewing_time\":964},{\"page_index\":3,\"viewing_time\":765}]",
        "rt": 4023,
        "trial_type": "instructions",
        "trial_index": 1,
        "time_elapsed": 6247,
        "internal_node_id": "0.0-1.0"
    },
    {
        "rt": 11745,
        "randomOrder": [
            9,
            7,
            14,
            16,
            3,
            11,
            12,
            8,
            13,
            2,
            1,
            6,
            10,
            5,
            15,
            4
        ],
        "timeRT": [
            1005,
            1389,
            1813,
            2552,
            3158,
            3863,
            5320,
            6254,
            7391,
            7852,
            8461,
            9174,
            9988,
            10622,
            11301,
            11745
        ],
        "missBoxValue": [],
        "missExpectedValue": [],
        "missGridIndex": [],
        "missExpectedGridIndex": [],
        "missDistance": [],
        "missTimeRT": [],
        "gridSize": 4,
        "trailsType": "A",
        "trial_type": "trails",
        "trial_index": 2,
        "time_elapsed": 17996,
        "internal_node_id": "0.0-2.0-0.0"
    },
    {
        "view_history": "[{\"page_index\":0,\"viewing_time\":938}]",
        "rt": 938,
        "trial_type": "instructions",
        "trial_index": 3,
        "time_elapsed": 18935,
        "internal_node_id": "0.0-2.0-1.0"
    },
    {
        "view_history": "[{\"page_index\":0,\"viewing_time\":769},{\"page_index\":1,\"viewing_time\":929},{\"page_index\":2,\"viewing_time\":805},{\"page_index\":3,\"viewing_time\":672}]",
        "rt": 3175,
        "trial_type": "instructions",
        "trial_index": 4,
        "time_elapsed": 22111,
        "internal_node_id": "0.0-3.0"
    },
    {
        "rt": 11614,
        "randomOrder": [
            "C",
            1,
            "D",
            "G",
            "E",
            "B",
            "H",
            "A",
            7,
            2,
            8,
            6,
            "F",
            4,
            5,
            3
        ],
        "timeRT": [
            912,
            1385,
            2168,
            2966,
            3566,
            4550,
            5367,
            5799,
            7440,
            8022,
            8766,
            9503,
            10079,
            10726,
            11278,
            11614
        ],
        "missBoxValue": [],
        "missExpectedValue": [],
        "missGridIndex": [],
        "missExpectedGridIndex": [],
        "missDistance": [],
        "missTimeRT": [],
        "gridSize": 4,
        "trailsType": "B",
        "trial_type": "trails",
        "trial_index": 5,
        "time_elapsed": 33726,
        "internal_node_id": "0.0-4.0-0.0"
    },
    {
        "view_history": "[{\"page_index\":0,\"viewing_time\":688}]",
        "rt": 688,
        "trial_type": "instructions",
        "trial_index": 6,
        "time_elapsed": 34415,
        "internal_node_id": "0.0-4.0-1.0"
    },
    {
        "success": true,
        "trial_type": "fullscreen",
        "trial_index": 7,
        "time_elapsed": 35416,
        "internal_node_id": "0.0-5.0"
    }
]